{
  "resourceType": "Bundle",
  "id": "b1",
  "type": "message",
  "entry": [
    {
      "resource": {
        "resourceType": "MessageHeader",
        "id": "m1",
        "eventCoding": {
          "system": "http://hl7.org/fhir/message-events",
          "code": "admin-notify"
        },
        "source": { "name": "TestApp" },
        "focus": [
          { "reference": "Patient/p1" },
          { "reference": "Encounter/e1" }
        ]
      }
    },
    {
      "resource": {
        "resourceType": "Patient",
        "id": "p1",
        "name": [{ "use": "official", "family": "Navarro", "given": ["Dubhan"] }],
        "gender": "male",
        "birthDate": "2003-07-31"
      }
    },
    {
      "resource": {
        "resourceType": "Encounter",
        "id": "e1",
        "status": "planned",
        "subject": { "reference": "Patient/p1" }
      }
    }
  ]
}
